Cooling Curve : Full Field:p/k=6:Log(To) = 7.5:Zero Metals											

log(T)	ne	nH	nt	log(lambda net)	log(lambda norm)	log(U)	log(taucool)	P12	rho24	Ci	mubar

7.500	0.0338	0.0300	0.0319	-25.89	-22.92	-9.366	14.74	289.1	0.072	674.9	0.965
7.444	0.0407	0.0361	0.0384	-25.75	-22.95	-9.342	14.70	303.3	0.076	630.5	0.965
7.395	0.0471	0.0418	0.0444	-25.65	-22.97	-9.327	14.68	314.2	0.088	596.3	0.965
7.346	0.0543	0.0482	0.0513	-25.54	-22.99	-9.314	14.65	323.4	0.102	563.4	0.965
7.296	0.0625	0.0554	0.0589	-25.44	-23.01	-9.304	14.62	331.2	0.117	531.8	0.965
7.245	0.0716	0.0635	0.0675	-25.34	-23.03	-9.296	14.59	337.9	0.134	501.6	0.965
7.194	0.0819	0.0726	0.0773	-25.25	-23.05	-9.288	14.56	343.6	0.154	472.9	0.965
7.142	0.0936	0.0830	0.0883	-25.15	-23.07	-9.282	14.53	348.6	0.176	445.6	0.965
7.091	0.1068	0.0947	0.1007	-25.06	-23.09	-9.276	14.50	352.9	0.200	419.8	0.965
7.038	0.1217	0.1079	0.1148	-24.97	-23.11	-9.272	14.47	356.6	0.228	395.3	0.965
6.986	0.1385	0.1228	0.1307	-24.87	-23.13	-9.268	14.43	359.9	0.260	372.2	0.965
6.933	0.1576	0.1397	0.1486	-24.78	-23.15	-9.265	14.40	362.7	0.295	350.4	0.965
6.881	0.1791	0.1588	0.1690	-24.68	-23.16	-9.261	14.36	365.2	0.336	329.7	0.965
6.828	0.2035	0.1804	0.1920	-24.59	-23.18	-9.259	14.33	367.4	0.382	310.3	0.965
6.775	0.2311	0.2049	0.2180	-24.50	-23.20	-9.256	14.29	369.3	0.433	291.9	0.965
6.722	0.2623	0.2326	0.2474	-24.41	-23.22	-9.255	14.26	371.0	0.492	274.6	0.965
6.669	0.2977	0.2639	0.2808	-24.31	-23.24	-9.253	14.22	372.5	0.558	258.3	0.965
6.616	0.3376	0.2993	0.3185	-24.22	-23.25	-9.251	14.18	373.8	0.633	243.0	0.965
6.562	0.3829	0.3394	0.3611	-24.13	-23.27	-9.250	14.15	374.9	0.718	228.5	0.965
6.509	0.4341	0.3848	0.4094	-24.03	-23.28	-9.249	14.10	375.9	0.814	214.9	0.965
6.456	0.4920	0.4362	0.4641	-23.94	-23.29	-9.247	14.07	376.8	0.923	202.1	0.965
6.402	0.5576	0.4943	0.5259	-23.84	-23.31	-9.247	14.03	377.6	1.045	190.0	0.965
6.349	0.6317	0.5601	0.5959	-23.74	-23.32	-9.246	13.98	378.3	1.185	178.7	0.965
6.295	0.7157	0.6345	0.6751	-23.63	-23.32	-9.246	13.93	378.9	1.342	168.0	0.965
6.242	0.8107	0.7187	0.7647	-23.53	-23.32	-9.244	13.88	379.4	1.520	158.0	0.965
6.188	0.9183	0.8141	0.8662	-23.43	-23.33	-9.244	13.83	379.9	1.722	148.5	0.965
6.134	1.040	0.9220	0.9810	-23.33	-23.33	-9.244	13.79	380.3	1.950	139.6	0.965
6.081	1.178	1.044	1.111	-23.22	-23.34	-9.243	13.73	380.6	2.208	131.3	0.965
6.027	1.334	1.182	1.258	-23.11	-23.34	-9.243	13.68	381.0	2.501	123.4	0.965
5.974	1.510	1.339	1.424	-23.00	-23.34	-9.242	13.62	381.3	2.832	116.0	0.965
5.920	1.710	1.516	1.613	-22.89	-23.33	-9.242	13.57	381.5	3.206	109.1	0.965
5.866	1.936	1.716	1.826	-22.78	-23.32	-9.242	13.51	381.7	3.630	102.6	0.965
5.813	2.191	1.943	2.067	-22.66	-23.31	-9.242	13.45	381.9	4.109	96.41	0.965
5.759	2.481	2.199	2.340	-22.53	-23.30	-9.242	13.37	382.1	4.652	90.63	0.965
5.705	2.808	2.490	2.649	-22.41	-23.28	-9.242	13.30	382.2	5.266	85.20	0.965
5.652	3.179	2.818	2.999	-22.28	-23.26	-9.241	13.23	382.4	5.961	80.09	0.965
5.598	3.599	3.190	3.394	-22.14	-23.23	-9.241	13.14	382.5	6.748	75.29	0.965
5.544	4.073	3.611	3.842	-22.00	-23.19	-9.241	13.05	382.6	7.638	70.78	0.965
5.490	4.611	4.087	4.349	-21.85	-23.15	-9.242	12.96	382.7	8.646	66.53	0.965
5.437	5.219	4.627	4.923	-21.69	-23.10	-9.241	12.85	382.8	9.786	62.54	0.965
5.383	5.907	5.237	5.572	-21.53	-23.05	-9.241	12.75	382.8	11.08	58.79	0.965
5.329	6.685	5.927	6.307	-21.36	-22.98	-9.241	12.63	382.9	12.54	55.26	0.965
5.276	7.566	6.709	7.138	-21.18	-22.92	-9.240	12.50	383.0	14.19	51.95	0.965
5.222	8.563	7.593	8.079	-21.00	-22.84	-9.241	12.38	383.0	16.06	48.83	0.965
5.168	9.689	8.594	9.144	-20.81	-22.75	-9.241	12.24	383.0	18.18	45.90	0.965
5.114	10.96	9.727	10.35	-20.61	-22.66	-9.241	12.09	382.9	20.57	43.14	0.965
5.061	12.39	11.01	11.71	-20.42	-22.59	-9.241	11.96	382.8	23.28	40.55	0.966
5.007	14.00	12.45	13.25	-20.28	-22.55	-9.241	11.87	382.5	26.33	38.11	0.967
4.954	15.79	14.07	14.97	-20.19	-22.56	-9.242	11.83	382.1	29.76	35.83	0.968
4.903	17.71	15.83	16.84	-20.14	-22.62	-9.242	11.83	381.6	33.49	33.76	0.969
4.852	19.83	17.79	18.93	-20.13	-22.70	-9.243	11.87	380.9	37.64	31.81	0.971
4.801	22.24	20.04	21.33	-20.12	-22.79	-9.244	11.91	380.1	42.40	29.94	0.973
4.747	25.04	22.67	24.12	-20.07	-22.85	-9.245	11.91	379.2	47.95	28.12	0.975
4.693	28.22	25.65	27.30	-19.98	-22.86	-9.246	11.88	378.4	54.26	26.41	0.977
4.640	31.82	29.03	30.89	-19.83	-22.82	-9.246	11.78	377.7	61.41	24.80	0.979
4.586	35.91	32.86	34.96	-19.65	-22.75	-9.247	11.65	377.2	69.50	23.30	0.981
4.535	40.29	36.95	39.32	-19.46	-22.66	-9.248	11.51	376.7	78.16	21.96	0.982
4.490	44.56	40.97	43.59	-19.28	-22.57	-9.249	11.37	376.3	86.65	20.84	0.983
4.434	50.53	46.63	49.62	-19.10	-22.50	-9.249	11.25	375.6	98.64	19.51	0.985
4.387	56.03	51.92	55.25	-18.99	-22.48	-9.250	11.18	374.8	109.8	18.47	0.987
4.347	61.19	57.00	60.65	-18.94	-22.51	-9.251	11.17	373.8	120.6	17.61	0.989
4.299	67.71	63.58	67.65	-18.92	-22.58	-9.253	11.20	372.3	134.5	16.64	0.994
4.257	73.88	70.07	74.55	-18.94	-22.68	-9.255	11.25	370.5	148.2	15.81	0.998
4.209	81.16	78.21	83.21	-19.01	-22.84	-9.259	11.36	367.6	165.4	14.91	1.006
4.165	87.96	86.60	92.14	-19.12	-23.03	-9.263	11.51	363.7	183.2	14.09	1.017
4.122	94.15	95.69	101.8	-19.29	-23.27	-9.270	11.71	358.2	202.4	13.30	1.033
4.075	98.97	106.7	113.5	-19.62	-23.67	-9.282	12.06	348.4	225.6	12.43	1.062